Results of Calibration by Steinhart and Hart(1968)

Calibration Date/time       :  2018-04-15 18:52:59
Resistance type             :  NTC (Negative Temperature Coefficient) 
Calibration function        :  1/(T(K)) = A + B﹞lnR(次) + C﹞(lnR(次))^3 
Fitting parameters(A B C)   :  1.0657453170e-03   2.1254772356e-04   8.8594811267e-08 

     Resistance/次       Measured/⊥     Calculated/⊥      Residual/mK
 116160.4000000000     -1.7920000000     -1.7924119227        -0.4119227
 104115.1000000000      0.2250000000      0.2245547181        -0.4452819
  93556.9000000000      2.2185000000      2.2183498328        -0.1501672
  84170.7000000000      4.2135000000      4.2132283286        -0.2716714
  68356.3000000000      8.2105000000      8.2102306358        -0.2693642
  50449.4000000000     14.2180000000     14.2176130039        -0.3869961
  35890.9000000000     21.2100000000     21.2090231870        -0.9768130
  23618.5000000000     30.2000000000     30.2003931685         0.3931685
  35890.9000000000     21.2090000000     21.2090231870         0.0231870
  50451.1000000000     14.2160000000     14.2169348304         0.9348304
  68358.4000000000      8.2095000000      8.2096336181         0.1336181
  84170.7000000000      4.2130000000      4.2132283286         0.2283286
  93554.0000000000      2.2180000000      2.2189312735         0.9312735
 104111.9000000000      0.2250000000      0.2251244278         0.1244278
 116156.8000000000     -1.7920000000     -1.7918443640         0.1556360

Correlation coefficient     :  0.9999999986 
Standard Deviation          :  0.0004930712  ⊥



######################################################################
Results of Calibration by Hoge(1988)

Calibration Date/time       :  2018-04-15 18:52:59
Resistance type             :  NTC (Negative Temperature Coefficient) 
Calibration function        :  1/(T(K)) = A + B﹞lnR(次) + C﹞(lnR(次))^2 + D﹞(lnR(次))^3 
Fitting parameters(A B C D) :  1.0921187449e-03   2.0526644590e-04   6.6919603243e-07   6.8120316172e-08 

     Resistance/次       Measured/⊥     Calculated/⊥      Residual/mK
 116160.4000000000     -1.7920000000     -1.7922330064        -0.2330064
 104115.1000000000      0.2250000000      0.2245576917        -0.4423083
  93556.9000000000      2.2185000000      2.2182468967        -0.2531033
  84170.7000000000      4.2135000000      4.2130762472        -0.4237528
  68356.3000000000      8.2105000000      8.2101083664        -0.3916336
  50449.4000000000     14.2180000000     14.2176998964        -0.3001036
  35890.9000000000     21.2100000000     21.2092751415        -0.7248585
  23618.5000000000     30.2000000000     30.2000941694         0.0941694
  35890.9000000000     21.2090000000     21.2092751415         0.2751415
  50451.1000000000     14.2160000000     14.2170216970         1.0216970
  68358.4000000000      8.2095000000      8.2095113346         0.0113346
  84170.7000000000      4.2130000000      4.2130762472         0.0762472
  93554.0000000000      2.2180000000      2.2188283152         0.8283152
 104111.9000000000      0.2250000000      0.2251273619         0.1273619
 116156.8000000000     -1.7920000000     -1.7916655080         0.3344920

Correlation coefficient     :  0.9999999988 
Standard Deviation          :  0.0004626737  ⊥




