Results of Calibration by Steinhart and Hart(1968)

Calibration Date/time       :  2018-04-15 17:01:12
Resistance type             :  NTC (Negative Temperature Coefficient) 
Calibration function        :  1/(T(K)) = A + B﹞lnR(次) + C﹞(lnR(次))^3 
Fitting parameters(A B C)   :  1.0671598046e-03   2.1234431032e-04   8.9571248719e-08 

     Resistance/次       Measured/⊥     Calculated/⊥      Residual/mK
 115882.9000000000     -1.7920000000     -1.7921044049        -0.1044049
 103875.8000000000      0.2250000000      0.2246269091        -0.3730909
  93345.8000000000      2.2185000000      2.2190086398         0.5086398
  83990.7000000000      4.2135000000      4.2129789081        -0.5210919
  68217.4000000000      8.2105000000      8.2104278326        -0.0721674
  50356.7000000000     14.2180000000     14.2173510549        -0.6489451
  35830.2000000000     21.2100000000     21.2091842890        -0.8157110
  23582.8000000000     30.2000000000     30.2003227631         0.3227631
  35830.2000000000     21.2090000000     21.2091842890         0.1842890
  50358.4000000000     14.2160000000     14.2166712736         0.6712736
  68219.5000000000      8.2095000000      8.2098292391         0.3292391
  83990.7000000000      4.2130000000      4.2129789081        -0.0210919
  93345.8000000000      2.2180000000      2.2190086398         1.0086398
 103875.8000000000      0.2250000000      0.2246269091        -0.3730909
 115882.9000000000     -1.7920000000     -1.7921044049        -0.1044049

Correlation coefficient     :  0.9999999986 
Standard Deviation          :  0.0004924166  ⊥



######################################################################
Results of Calibration by Hoge(1988)

Calibration Date/time       :  2018-04-15 17:01:12
Resistance type             :  NTC (Negative Temperature Coefficient) 
Calibration function        :  1/(T(K)) = A + B﹞lnR(次) + C﹞(lnR(次))^2 + D﹞(lnR(次))^3 
Fitting parameters(A B C D) :  1.0936013144e-03   2.0504293374e-04   6.7116331008e-07   6.9032866538e-08 

     Resistance/次       Measured/⊥     Calculated/⊥      Residual/mK
 115882.9000000000     -1.7920000000     -1.7919238694         0.0761306
 103875.8000000000      0.2250000000      0.2246312995        -0.3687005
  93345.8000000000      2.2185000000      2.2189069511         0.4069511
  83990.7000000000      4.2135000000      4.2128280238        -0.6719762
  68217.4000000000      8.2105000000      8.2103067841        -0.1932159
  50356.7000000000     14.2180000000     14.2174394702        -0.5605298
  35830.2000000000     21.2100000000     21.2094381144        -0.5618856
  23582.8000000000     30.2000000000     30.2000248571         0.0248571
  35830.2000000000     21.2090000000     21.2094381144         0.4381144
  50358.4000000000     14.2160000000     14.2167596627         0.7596627
  68219.5000000000      8.2095000000      8.2097081764         0.2081764
  83990.7000000000      4.2130000000      4.2128280238        -0.1719762
  93345.8000000000      2.2180000000      2.2189069511         0.9069511
 103875.8000000000      0.2250000000      0.2246312995        -0.3687005
 115882.9000000000     -1.7920000000     -1.7919238694         0.0761306

Correlation coefficient     :  0.9999999988 
Standard Deviation          :  0.0004642555  ⊥




