Results of Calibration by Steinhart and Hart(1968)

Calibration Date/time       :  2018-04-15 18:49:02
Resistance type             :  NTC (Negative Temperature Coefficient) 
Calibration function        :  1/(T(K)) = A + B﹞lnR(次) + C﹞(lnR(次))^3 
Fitting parameters(A B C)   :  1.0667708004e-03   2.1234410125e-04   8.9905050791e-08 

     Resistance/次       Measured/⊥     Calculated/⊥      Residual/mK
 115822.1000000000     -1.7920000000     -1.7926255188        -0.6255188
 103824.9000000000      0.2250000000      0.2245285171        -0.4714829
  93305.9000000000      2.2185000000      2.2187798834         0.2798834
  83957.4000000000      4.2135000000      4.2131907044        -0.3092956
  68198.4000000000      8.2105000000      8.2103885283        -0.1114717
  50350.6000000000     14.2180000000     14.2171181066        -0.8818934
  35831.2000000000     21.2100000000     21.2091416917        -0.8583083
  23587.6000000000     30.2000000000     30.2004739761         0.4739761
  35831.2000000000     21.2090000000     21.2091416917         0.1416917
  50352.2000000000     14.2160000000     14.2164779296         0.4779296
  68200.6000000000      8.2095000000      8.2097609443         0.2609443
  83954.8000000000      4.2130000000      4.2137792029         0.7792029
  93305.9000000000      2.2180000000      2.2187798834         0.7798834
 103821.7000000000      0.2250000000      0.2251005185         0.1005185
 115818.5000000000     -1.7920000000     -1.7920555876        -0.0555876

Correlation coefficient     :  0.9999999985 
Standard Deviation          :  0.0005218065  ⊥



######################################################################
Results of Calibration by Hoge(1988)

Calibration Date/time       :  2018-04-15 18:49:02
Resistance type             :  NTC (Negative Temperature Coefficient) 
Calibration function        :  1/(T(K)) = A + B﹞lnR(次) + C﹞(lnR(次))^2 + D﹞(lnR(次))^3 
Fitting parameters(A B C D) :  1.1137203340e-03   1.9937958836e-04   1.1917534208e-06   5.3435406937e-08 

     Resistance/次       Measured/⊥     Calculated/⊥      Residual/mK
 115822.1000000000     -1.7920000000     -1.7923053374        -0.3053374
 103824.9000000000      0.2250000000      0.2245363482        -0.4636518
  93305.9000000000      2.2185000000      2.2185996767         0.0996767
  83957.4000000000      4.2135000000      4.2129232908        -0.5767092
  68198.4000000000      8.2105000000      8.2101740989        -0.3259011
  50350.6000000000     14.2180000000     14.2172752017        -0.7247983
  35831.2000000000     21.2100000000     21.2095922886        -0.4077114
  23587.6000000000     30.2000000000     30.1999464419        -0.0535581
  35831.2000000000     21.2090000000     21.2095922886         0.5922886
  50352.2000000000     14.2160000000     14.2166349810         0.6349810
  68200.6000000000      8.2095000000      8.2095464886         0.0464886
  83954.8000000000      4.2130000000      4.2135117766         0.5117766
  93305.9000000000      2.2180000000      2.2185996767         0.5996767
 103821.7000000000      0.2250000000      0.2251082794         0.1082794
 115818.5000000000     -1.7920000000     -1.7917355137         0.2644863

Correlation coefficient     :  0.9999999989 
Standard Deviation          :  0.0004405108  ⊥




